Folder: phd-thesis/data/lateral_stiffness_tension

Note: README
# PhD Dissertation: The Bicycle Wheel
__Author:__ Matthew Ford

__Institution:__ Northwestern University

__Department:__ Mechanical Engineering

File: T0353_load-disp.csv
displacement [mm],Load [N]
0,0
0.0187657,4.45712
0.0750627,8.91424
0.150125,18.7209
0.243954,28.5275
0.412845,44.5712
0.62865,64.1845
0.891369,89.1424
1.10717,108.756
0.0187657,0

File: T353_load-disp.csv
displacement [mm],Load [N]
0,0
0.0375313,4.45712
0.0844455,8.91424
0.187657,18.7209
0.290868,28.5275
0.450376,44.5712
0.666181,64.1845
0.938284,89.1424
1.14471,108.756
0.0375313,0

File: T0485_load-disp.csv
displacement [mm],Load [N]
0,0
0.0281485,4.45712
0.0750627,8.91424
0.178274,18.7209
0.281485,28.5275
0.450376,44.5712
0.675564,64.1845
0.947666,89.1424
1.16347,108.756
0.0281485,0

File: T0615_load-disp.csv
displacement [mm],Load [N]
0,0
0.0187657,4.45712
0.0750627,8.91424
0.1642,18.7209
0.262719,28.5275
0.43161,44.5712
0.647416,64.1845
0.919518,89.1424
1.13532,108.756
0,0

File: T0737_load-disp.csv
displacement [mm],Load [N]
0,0
0.02345709,4.45712
0.0750627,8.91424
0.178274,18.7209
0.281485,28.5275
0.450376,44.5712
0.675564,64.1845
0.957049,89.1424
1.21039,108.756
0.0469142,0

File: T0870_load-disp.csv
displacement [mm],Load [N]
0,0
0.0469142,4.45712
0.0938284,8.91424
0.206422,18.7209
0.319016,28.5275
0.487907,44.5712
0.722478,64.1845
1.03211,89.1424
1.27607,108.756
0.0375313,0

File: T1067_load-disp.csv
displacement [mm],Load [N]
0,0
0.056297,4.45712
0.117285,8.91424
0.243954,18.7209
0.370622,28.5275
0.581736,44.5712
0.844455,64.1845
1.16347,89.1424
1.43557,108.756
0.0375313,0