Folder: phd-thesis/data/rim_diam_compression

Note: data/rim_diam_compression/Alex-ALX295.txt
Load	Displacement
(lb)	(in)
-0.696906714	0
-0.73685955	-0.0004
-0.711889028	-0.0013
-0.717715838	-0.0012
-0.732698152	-0.0003
-0.706062928	-0.0008
-0.722709943	-0.0005
-0.721045241	-0.0004
-0.712721734	-0.0006
-0.723541938	-0.0001
-0.72520664	-0.0008
-0.742686361	-0.0013
-0.747680465	-0.0003
-0.72520664	-0.0003
-0.730200744	-0.0003
-0.742686361	-0.0008
-0.724374644	-0.0006
-0.735194849	-0.0002
-0.713553729	-0.0001
-0.72520664	-0.0004
-0.73103345	-0.0006
-0.709392331	-0.0011
-0.721877237	-0.0002
-0.716051137	-0.0003
-0.740189664	-0.0009
-0.721045241	-0.0008
-0.710224326	-0.0007
-0.715218431	-0.001
-0.741853655	-0.0006
-0.721045241	-0.0003
-0.736027555	-0.0007
-0.741021659	-0.0008
-0.712721734	-0.0005
-0.73103345	-0.0007
-0.731865446	-0.0003
-0.745183058	-0.0005
-0.711889028	-0.0007
-0.733530147	-0.0003
-0.710224326	-0.0006
-0.728536043	-0.0004
-0.733530147	-0.0002
-0.710224326	-0.0006
-0.718547834	-0.0008
-0.72520664	-0.001
-0.742686361	-0.0007
-0.706894923	-0.0013
-0.728536043	-0.0006
-0.726039346	-0.0007
-0.716051137	-0.0003
-0.728536043	-0.0004
-0.699404122	-0.0003
-0.726871341	-0.0003
-0.707727629	-0.001
-0.701068113	-0.0013
-1.049825564	-0.0016
-1.326168144	-0.002
-1.688243207	-0.004
-2.012029425	-0.0039
-2.329156837	-0.0049
-2.731184736	-0.0059
-3.074115377	-0.0068
-3.363775569	-0.0082
-3.771629568	-0.008
-4.033821831	-0.0096
-4.374255774	-0.0096
-4.708030201	-0.0113
-5.019331513	-0.0121
-5.414700606	-0.0131
-5.7118516	-0.013
-6.057278938	-0.0143
-6.391054075	-0.0143
-6.741476228	-0.0155
-7.077748062	-0.0171
-7.403198982	-0.0173
-7.74862703	-0.018
-8.099881178	-0.0188
-8.487758759	-0.0205
-8.759106524	-0.0212
-9.192765173	-0.0215
-9.44996191	-0.0228
-9.829516694	-0.0231
-10.1341592	-0.0243
-10.45544872	-0.0248
-10.77923494	-0.0262
-11.10218987	-0.0268
-11.49256415	-0.0271
-11.85547121	-0.0278
-12.2483436	-0.0292
-12.77272742	-0.0312
-13.19389974	-0.032
-13.58177732	-0.0328
-13.93969099	-0.0331
-14.20021855	-0.0345
-14.51484855	-0.0346
-14.86943281	-0.0354
-15.18406353	-0.037
-15.62021745	-0.0377
-15.92902136	-0.0387
-16.23979903	-0.0397
-16.64099422	-0.0399
-17.06549524	-0.0423
-17.51496819	-0.0425
-17.82460481	-0.0427
-18.2124831	-0.0442
-18.49381907	-0.0449
-18.89667897	-0.0459
-19.16969214	-0.0472
-19.58254025	-0.0473
-19.88385264	-0.0486
-20.19348925	-0.049
-20.53641989	-0.0507
-20.87102773	-0.0503
-21.26390013	-0.0517
-21.5485648	-0.0522
-21.89482626	-0.0534
-22.23609149	-0.0536
-22.61897568	-0.0553
-22.88199922	-0.0557
-23.21660778	-0.0567
-23.57285461	-0.0571
-23.89081544	-0.0577
-24.22375716	-0.0585
-24.558365	-0.0599
-24.89297143	-0.0619
-25.55219748	-0.0629
-25.93175156	-0.0629
-26.26136529	-0.064
-26.5793247	-0.0647
-26.86898489	-0.0661
-27.1819502	-0.067
-27.52488084	-0.0684
-27.90943044	-0.0677
-28.17578268	-0.0696
-28.43214955	-0.0692
-28.45379067	-0.0702
-28.45545537	-0.0692
-28.40717974	-0.069
-28.41383712	-0.0689
-28.43214955	-0.0689
-28.39885481	-0.0693
-28.40551433	-0.0689
-28.42049593	-0.0694
-28.392196	-0.069
-28.4121731

Note: data/rim_diam_compression/CR18-20.txt
Load	Displacement
(lb)	(in)
-1.223957746	0
-1.264715578	-0.0007
-1.327933026	-0.001
-1.222294465	-0.001
-1.217303203	-0.0023
-1.29133304	-0.0005
-1.236434836	-0.0003
-1.253070483	-0.0026
-1.25722975	-0.0031
-1.149927909	-0.0015
-1.259725026	-0.0005
-1.250575207	0.0003
-1.283847212	-0.0006
-1.341241402	0.0008
-1.353718492	-0.0011
-1.527564343	0.0003
-1.889396415	-0.0033
-2.055755727	-0.0051
-2.339399405	-0.0017
-2.628032925	-0.0047
-2.817683138	-0.0046
-2.991528988	-0.0042
-3.222769029	-0.0057
-3.430718169	-0.005
-3.775914594	-0.0083
-3.962237535	-0.0105
-4.405585982	-0.0102
-4.463811457	-0.0116
-4.702538036	-0.0106
-5.041911914	-0.0102
-5.363817438	-0.0146
-5.582580388	-0.0136
-5.743949148	-0.0136
-6.038405926	-0.0146
-6.384433636	-0.0142
-6.708835147	-0.0153
-6.948393011	-0.0201
-7.304402536	-0.019
-7.831762635	-0.0188
-8.084629585	-0.0196
-8.423170756	-0.021
-8.734263892	-0.0211
-8.972157765	-0.0216
-9.182602891	-0.022
-9.630109895	-0.0245
-9.82475066	-0.0245
-10.09841252	-0.0259
-10.30719366	-0.0249
-10.58917335	-0.0274
-10.80211446	-0.0279
-11.12235599	-0.0274
-11.42845858	-0.0286
-11.7387183	-0.0277
-12.0639518	-0.0272
-12.27106966	-0.0297
-12.34676349	-0.0321
-12.91238614	-0.0321
-13.2650691	-0.0326
-13.4447375	-0.0346
-13.76082048	-0.0336
-14.06442637	-0.035
-14.16507437	-0.0366
-14.48448462	-0.0357
-14.99520836	-0.0392
-15.37783606	-0.0382
-15.54752336	-0.0387
-15.82950304	-0.0401
-16.06608249	-0.04
-16.56183458	-0.0407
-16.90952557	-0.0409
-17.16738307	-0.0456
-17.48346605	-0.0417
-17.68143408	-0.0446
-18.02247266	-0.0466
-18.252048	-0.0472
-18.91748596	-0.0471
-19.15538196	-0.0506
-19.32673112	-0.0482
-19.80418285	-0.0505
-20.02377922	-0.05
-20.70917939	-0.0516
-20.91047469	-0.0532
-21.25317655	-0.0536
-21.67572938	-0.055
-21.8404247	-0.0532
-22.15151854	-0.0541
-22.54246335	-0.056
-22.76871142	-0.0567
-23.33100751	-0.0595
-23.48239446	-0.0594
-23.70032684	-0.0577
-24.08128912	-0.0594
-24.29256766	-0.0592
-24.56706081	-0.0599
-24.86151759	-0.0621
-25.18758025	-0.0617
-25.67667921	-0.0635
-25.93620071	-0.0631
-26.26392736	-0.0671
-26.63823723	-0.0656
-26.82455946	-0.0671
-27.26208607	-0.0652
-27.47668975	-0.0672
-27.80275455	-0.0686
-28.03898585	-0.0687
-28.35673353	-0.0692
-28.6711518	-0.0696
-29.00719841	-0.0716
-29.3332632	-0.0721
-29.67596506	-0.072
-29.93382327	-0.0747
-30.10683713	-0.0754
-30.49611724	-0.0746
-30.76562125	-0.0745
-31.10831956	-0.0771
-31.37948544	-0.0776
-31.65397859	-0.077
-31.98400371	-0.0789
-32.29010558	-0.0778
-32.5596096	-0.0811
-33.22504756	-0.0791
-33.54445709	-0.0821
-33.94039388	-0.0835
-34.35296631	-0.0839
-34.8154471	-0.0836
-35.39104944	-0.0851
-35.6971506	-0.0856
-36.06979861	-0.0874
-36.22617469	-0.0865
-36.51564091	-0.0876
-37.147809	-0.0881
-37.40067524	-0.0916
-37.9064063	-0.0901
-38.10604046	-0.0906
-38.46537725	-0.0906
-38.97110902	-0.0919
-39.25392141	-0.0925
-39.55336874	-0.0956
-40.0957005	-0.0956
-40.62805186	-0.0969
-41.07056689	-0.0966
-41.22029269	-0.0979
-41.65282661	-0.0986
-41.9256579	

Note: README
# PhD Dissertation: The Bicycle Wheel
__Author:__ Matthew Ford

__Institution:__ Northwestern University

__Department:__ Mechanical Engineering

File: DTS-R460.txt
SI Load [lb]	SI Stroke [in]
-1.0654	-1.4551
-2.4718	-1.454
-2.4718	-1.454
-1.0654	-1.4564
-0.7138	-1.4569
-1.7686	-1.4572
-2.589	-1.4584
-4.347	-1.4609
-2.589	-1.461
-4.347	-1.4632
-6.6911	-1.4639
-3.8782	-1.4662
-4.347	-1.4662
-4.347	-1.4656
-7.3943	-1.4672
-4.347	-1.471
-7.6287	-1.4705
-8.5664	-1.4711
-7.8631	-1.4721
-8.0975	-1.4734
-8.0975	-1.475
-7.746	-1.4767
-10.4416	-1.4766
-9.9728	-1.478
-10.9104	-1.481
-13.8405	-1.482
-11.848	-1.4822
-11.6136	-1.4839
-13.4889	-1.4834
-12.3169	-1.4862
-11.848	-1.487
-12.9029	-1.488
-12.5513	-1.4905
-17.4738	-1.49
-14.6609	-1.492
-18.9974	-1.492
-16.7706	-1.4935
-17.9426	-1.496
-15.7157	-1.4965
-18.8803	-1.4966
-15.0125	-1.497
-19.2318	-1.4991
-14.6609	-1.5
-17.005	-1.5025
-17.2394	-1.5039
-18.5286	-1.503
-17.4738	-1.5061
-19.7006	-1.5059
-20.9899	-1.5065
-21.9275	-1.51
-20.1695	-1.5096
-21.3415	-1.5118
-20.9899	-1.5123
-22.1619	-1.512
-25.3264	-1.515
-23.3339	-1.5148
-22.8652	-1.5159
-26.1468	-1.5186
-24.0372	-1.5184
-24.506	-1.5215
-24.9748	-1.5205
-25.5608	-1.5229
-26.0296	-1.5224
-26.0296	-1.5251
-25.678	-1.5253
-26.7328	-1.527
-25.4436	-1.5293
-29.6629	-1.5286
-28.2565	-1.5305
-28.8425	-1.532
-30.4834	-1.5355
-32.4758	-1.535
-32.1242	-1.5365
-32.2414	-1.5359
-30.3661	-1.538
-32.3586	-1.5394
-32.2414	-1.541
-34.1166	-1.5411
-32.1242	-1.5433
-34.8199	-1.5439
-33.4134	-1.5445
-33.4134	-1.5458
-34.351	-1.5474
-36.3435	-1.55
-38.4531	-1.5494
-36.4607	-1.5504
-37.2811	-1.5522
-38.922	-1.5537
-37.1639	-1.5553
-37.8671	-1.556
-37.5155	-1.5565
-38.3359	-1.5588
-38.922	-1.5582
-38.1015	-1.5613
-41.5004	-1.563
-40.094	-1.5632
-40.7972	-1.5643
-41.6176	-1.5652
-40.7972	-1.567
-40.3284	-1.5663
-42.0864	-1.5692
-43.7273	-1.5709
-42.7897	-1.5717
-42.9069	-1.5728
-44.1961	-1.5738
-45.1337	-1.575
-47.8294	-1.577
-44.8993	-1.577
-46.6574	-1.5777
-48.0638	-1.58
-48.4154	-1.5803
-46.6574	-1.5804
-46.7746	-1.5819
-48.8842	-1.586
-48.4154	-1.5845
-49.939	-1.5865
-47.7122	-1.5889
-50.7595	-1.59
-52.2831	-1.5905
-52.6347	-1.5915
-51.2283	-1.5923
-51.4627	-1.594
-56.1508	-1.596
-52.2831	-1.597
-52.9863	-1.598
-53.8068	-1.5979
-53.1035	-1.5985
-53.3379	-1.6011
-54.7444	-1.6005
-54.0412	-1.6022
-54.2756	-1.6056
-58.7293	-1.6046
-55.2132	-1.6071
-55.7992	-1.6074
-55.9164	-1.6078
-58.4949	-1.6101
-56.7368	-1.6089
-59.4325	-1.6104
-58.0261	-1.6111
-58.1433	-1.6103
-58.2605	-1.6116
-57.3229	-1.6093
-56.0336	-1.6097
-56.854	-1.6106
-55.7992	-1.6092
-56.6196	-1.6079
-55.096	-1.6046
-55.9164	-1.6032
-54.0412	-1.6031
-54.6272	-1.6038
-53.2207	-1.6009
-52.4003	-1.6
-52.0487	-1.5985
-53.2207	-1.5978
-55.4476	-1.5977
-53.2207	-1.5953
-51.2283	-1.5952
-51.2283	-1.5938
-50.4079	-1.5935
-50.4079	-1.5925
-50.4079	-1.5903
-50.1735	-1.5904
-48.8842	-1.588
-49.353	-1.5873
-47.4778	-1.5847
-46.5402	-1.584
-47.7122	-1.5817
-46.5402	-1.5825
-48.0638	-1.5818
-47.9466	-1.5783
-43.9617	-1.5783
-44.6649	-1.578
-46.5402	-1.5752
-43.7273	-1.5732
-45.6025	-1.574
-42.5553	-1.574
-45.6025	-1.572
-42.9069	-1.5695
-41.9692	-1.5688
-43.2585	-1.5674
-40.5628	-1.5659
-42.4381	-1.5663
-39.8596	-1.565
-38.1015	-1.563
-39.7424	-1.5618
-39.508	-1.562
-37.8671	-1.559
-38.8048	-1.5588
-38.1015	-1.557
-40.094	-1.556
-35.9919	-1.5555
-39.508	-1.554
-35.7575	-1.5532
-35.2887	-1.5512
-35.2887	-1.5488
-35.7575	-1.549
-33.6478	-1.5488
-34.1166	-1.5468
-33.9995	-1.546
-33.6478	-1.5441
-35.2887	-1.544
-30.9522	-1.543
-32.2414	-1.5408
-31.5382	-1.5383
-32.4758	-1.5395
-30.7178	-1.5375
-29.4285	-1.536
-29.5457	-1.5345
-28.8425	-1.5325
-28.4909	-1.5321
-28.7253	-1.5315
-27.7877	-1.5303
-28.2565	-1.5298
-26.85	-1.529
-26.7328	-1.527
-27.6705	-1.5253
-26.3812	-1.5254
-24.506	-1.5249
-26.1468	-1.5219
-25.2092	-1.521
-27.3189	-1.5201
-23.4512	-1.5186
-23.3339	-1.5176
-24.9748	-1.517
-24.6232	-1.516
-23.0995	-1.515
-21.3415	-1.513
-20.7555	-1.5121
-21.4587	-1.5118
-20.1695	-1.5105
-20.7555	-1.5103
-21.4587	-1.509
-19.7006	-1.5063
-18.4114	-1.5055
-18.2942	-1.505
-18.5286	-1.5015
-18.6458	-1.502
-17.005	-1.501
-15.7157	-1.4991
-17.1222	-1.4973
-16.0674	-1.4969
-16.6534	-1.496
-14.3093	-1.4936
-13.7233	-1.4931
-13.3717	-1.4921
-16.0674	-1.4905
-12.4341	-1.4902
-12.9029	-1.4881
-14.1921	-1.4877
-12.7857	-1.488
-12.9029	-1.4857
-12.7857	-1.484
-11.848	-1.4829
-9.3868	-1.4801
-10.4416	-1.48
-8.918	-1.4799
-9.6212	-1.4795
-9.504	-1.476
-9.504	-1.4765
-7.9804	-1.4741
-9.1524	-1.474
-6.5739	-1.4732
-7.6287	-1.4707
-9.8556	-1.47
-6.1051	-1.4676
-7.8631	-1.468
-7.0427	-1.466
-4.347	-1.4641
-2.8234	-1.466
-3.4094	-1.4625
-2.9406	-1.463
-2.1202	-1.461
-4.2299	-1.461
-1.8858	-1.459
-1.6514	-1.4579
-1.417	-1.4534
-2.003	-1.4555
-0.7138	-1.4555
-1.5342	-1.4546
-2.1202	-1.4552