Folder: phd-thesis/data/buckling_tension_K2/CR18-700_36sp_inbound

Note: README
# PhD Dissertation: The Bicycle Wheel
__Author:__ Matthew Ford

__Institution:__ Northwestern University

__Department:__ Mechanical Engineering

File: 20mm_data.csv
Tension [N],displacement [mm],delta Load [N]
219.5,0,0
219.5,1.2954,4.52779
219.5,2.5908,9.05558
219.5,5.4864,19.0477
431.3,0,0
431.3,2.032,4.56798
431.3,3.9878,9.1318
431.3,7.6454,19.1654

File: 40mm_data.csv
Tension [N],displacement [mm],delta Load [N]
219.1,0,0
219.1,1.2446,9.90201
219.1,2.54,19.798
219.1,3.7338,28.7773
443.4,0,0
443.4,1.5748,9.92002
443.4,3.175,19.8326
443.4,4.6482,28.8272
646.3,0,0
646.3,2.0828,9.94773
646.3,4.1656,19.8866
646.3,6.0706,28.9048
839.4,0,0
839.4,2.54,9.97268
839.4,4.953,19.9296
839.4,7.0866,28.9602

File: 53mm_data.csv
Tension [N],displacement [mm],delta Load [N]
212.6,0,0
212.6,0.8636,9.88122
212.6,1.651,18.8384
212.6,4.064,44.6949
392.6,0,0
392.6,0.889,9.88261
392.6,1.7526,18.844
392.6,4.4958,44.7184
634.1,0,0
634.1,1.0668,9.89231
634.1,2.0574,18.8606
634.1,4.953,44.7434
776.3,0,0
776.3,1.1684,9.89785
776.3,2.2606,18.8717
776.3,5.4102,44.7683
1028.7,0,0
1028.7,1.524,9.91725
1028.7,2.8956,18.9063
1028.7,6.9088,44.8501
702.9,0,0
702.9,1.0922,9.89369
702.9,2.1082,18.8634
702.9,5.0546,44.7489

File: 60mm_data.csv
Tension [N],displacement [mm],delta Load [N]
407.8,0,0
407.8,0.6604,9.87014
407.8,1.3716,19.7342
407.8,1.9812,28.6817
627.7,0,0
627.7,0.7366,9.87429
627.7,1.524,19.7425
627.7,2.2098,28.6942
818.9,0,0
818.9,0.8636,9.88122
818.9,1.7272,19.7536
818.9,2.5146,28.7108
1035.2,0,0
1035.2,1.016,9.88954
1035.2,2.0574,19.7716
1035.2,2.9972,28.7371

File: 70mm_data.csv
Tension [N],displacement [mm],delta Load [N]
295.3,0,0
295.3,0.4826,9.86044
295.3,0.9906,19.7134
295.3,1.4478,28.6526
506.8,0,0
506.8,0.508,9.86182
506.8,1.016,19.7148
506.8,1.4986,28.6554
718,0,0
718,0.5588,9.86459
718,1.143,19.7217
718,1.6764,28.6651
932.3,0,0
932.3,0.6096,9.86736
932.3,1.2446,19.7273
932.3,1.8034,28.672
1087.6,0,0
1087.6,0.6604,9.87014
1087.6,1.3462,19.7328
1087.6,1.9558,28.6803
1254.9,0,0
1254.9,0.7366,9.87429
1254.9,1.4986,19.7411
1254.9,2.1844,28.6928

File: 80mm_data.csv
Tension [N],displacement [mm],delta Load [N]
339.8,0,0
339.8,0.3937,9.85559
339.8,0.7874,19.7023
339.8,1.1684,28.6374
559.6,0,0
559.6,0.4064,9.85628
559.6,0.8382,19.7051
559.6,1.2065,28.6395
559.6,1.905,44.5771
769.2,0,0
769.2,0.4318,9.85767
769.2,0.8636,19.7065
769.2,1.2573,28.6422
769.2,1.9558,44.5799
981.1,0,0
981.1,0.4572,9.85905
981.1,0.9144,19.7093
981.1,1.3462,28.6471
981.1,2.1082,44.5882
1140.9,0,0
1140.9,0.4826,9.86044
1140.9,0.9906,19.7134
1140.9,1.4351,28.6519
1140.9,2.2352,44.5951
1360.3,0,0
1360.3,0.5334,9.86321
1360.3,1.0668,19.7176
1360.3,1.5748,28.6595
1360.3,2.4638,44.6076